{
  "resourceType": "Bundle",
  "id": "685c2479-7bed-445d-98f7-bf97cd6aff44",
  "type": "transaction",
  "entry": [
    {
      "fullUrl": "urn:uuid:a528e42c-faf0-4a7c-a63d-01fbd44c91db",
      "resource": {
        "resourceType": "Patient",
        "id": "a528e42c-faf0-4a7c-a63d-01fbd44c91db",
        "identifier": [
          {
            "system": "HOSPITAL",
            "value": "5797374349"
          }
        ],
        "name": [
          {
            "family": "Pechel",
            "given": [
              "Luzia"
            ]
          }
        ],
        "gender": "female",
        "birthDate": "1962-08-26"
      }
    },
    {
      "fullUrl": "urn:uuid:f8a004cb-4270-4d8a-97ff-1fc2ce70492c",
      "resource": {
        "resourceType": "Condition",
        "id": "f8a004cb-4270-4d8a-97ff-1fc2ce70492c",
        "code": {
          "coding": [
            {
              "system": "ICD-10-GM",
              "code": "K80.1",
              "display": "Cholelithiasis"
            }
          ]
        },
        "subject": {
          "reference": "urn:uuid:a528e42c-faf0-4a7c-a63d-01fbd44c91db"
        }
      }
    },
    {
      "fullUrl": "urn:uuid:3dbacb30-7cff-46c3-9bad-b2f5da15dcb5",
      "resource": {
        "resourceType": "ServiceRequest",
        "id": "3dbacb30-7cff-46c3-9bad-b2f5da15dcb5",
        "intent": "order",
        "code": {
          "coding": [
            {
              "system": "OPS",
              "code": "5-987",
              "display": "Appendektomie"
            }
          ]
        },
        "subject": {
          "reference": "urn:uuid:a528e42c-faf0-4a7c-a63d-01fbd44c91db"
        },
        "occurrencePeriod": {
          "start": "2025-09-25T08:00:00",
          "end": "2025-09-25T11:00:00"
        },
        "authoredOn": "2025-09-05T12:35:00",
        "reasonReference": [
          {
            "reference": "urn:uuid:f8a004cb-4270-4d8a-97ff-1fc2ce70492c"
          }
        ]
      }
    },
    {
      "fullUrl": "urn:uuid:56d9cb2d-2890-49de-add3-081513cacb00",
      "resource": {
        "resourceType": "Provenance",
        "id": "56d9cb2d-2890-49de-add3-081513cacb00",
        "target": [
          {
            "reference": "urn:uuid:a528e42c-faf0-4a7c-a63d-01fbd44c91db"
          },
          {
            "reference": "urn:uuid:f8a004cb-4270-4d8a-97ff-1fc2ce70492c"
          },
          {
            "reference": "urn:uuid:3dbacb30-7cff-46c3-9bad-b2f5da15dcb5"
          }
        ],
        "agent": [
          {
            "who": {
              "identifier": {
                "value": "https://localhost:9443/fhir-server/api/v4/Device/v2-to-fhir-pipeline"
              }
            }
          }
        ],
        "entity": [
          {
            "role": "source",
            "what": {
              "display": "MSH|^~\\&|OP_SYSTEM|HOSPITAL|PMS|HOSPITAL|20250905123545||OMG^O19|MSG000001|P|2.9|||||||\rPID|1||5797374349^^^HOSPITAL||Pechel^Luzia^^^^||19620826|F|||Mendestr. 4^^Gütersloh^^43714^DE||00914 33016|||||||||||||||||\rPV1|1|I|OP^^^|||||7414^Hermine Weinhage|||||||||||348372|||||||||||||||||||||||||20250905123545|||||||||||||||\rORC|NW|OP-2025-29029||||||202509051235|||7414^Hermine Weinhage||+49(0)0830 30682|\rTQ1|1||||||202509250800|202509251100\rOBR|1|||5-987^Appendektomie^OPS||||||||20250925080045|20250925110045|||||||||||||||||||F\rDG1|1|I|K80.1^Cholelithiasis^ICD-10-GM||||F||||F"
            }
          }
        ]
      }
    }
  ]
}